Folder: RockPy/RockPy/Tools/data/XRD

Note: README.md
# RockPy
is a rock- and paleo- magnetism package. It combines many functions, that I have found useful over the years. 
It is intended to be easily user editable (e.g. creating new measurement types). 
The core (RockPy.core) of the package, however, is rather complicated and should not be edited.

# coding
## naming convention 
see google style guide 

`module_name`, `package_name`, 
`ClassName` (exception are result classes as they should behave as methods), `method_name`, 
`ExceptionName`, 
`function_name`, 
`GLOBAL_CONSTANT_NAME`, 
`global_var_name`, `instance_var_name`, `function_parameter_name`, `local_var_name`

File: pyrrhotite_4C_powell(2004)_298K_peaklist
Peak list for sample No diffraction data present
2theta;Peak height;FWHM;99-900-0004
17.82;;;156.9
17.87;;;48.3
18.04;;;85.6
19.41;;;13.0
19.57;;;152.6
21.93;;;138.5
22.03;;;11.9
28.52;;;10.8
28.65;;;77.0
30.13;;;7.7
30.44;;;10.8
30.51;;;38.8
31.51;;;52.4
32.25;;;55.4
32.54;;;18.3
33.04;;;28.3
33.25;;;19.8
34.92;;;405.9
34.93;;;804.2
35.34;;;0.3
36.10;;;1.8
36.19;;;4.2
36.37;;;20.3
36.52;;;43.9
36.55;;;107.9
37.84;;;18.4
38.15;;;22.9
39.42;;;123.7
39.51;;;623.1
39.67;;;243.1
39.73;;;312.0
41.04;;;63.9
44.22;;;38.5
44.60;;;19.5
44.72;;;0.5
44.94;;;0.5
45.00;;;10.4
45.17;;;1.6
46.78;;;3.7
46.97;;;9.0
47.02;;;0.1
47.04;;;23.7
47.06;;;4.0
47.67;;;1.3
47.81;;;57.5
48.07;;;2.6
48.78;;;43.1
48.90;;;1.4
48.95;;;32.9
49.04;;;1.7
49.46;;;0.9
49.80;;;14.8
50.40;;;0.0
50.66;;;0.3
51.18;;;496.6
51.32;;;931.2
51.58;;;1000.0
51.70;;;472.0
51.75;;;1.0
52.19;;;0.2
52.35;;;1.9
52.53;;;36.2
52.61;;;1.9
52.75;;;43.5
53.71;;;18.8
53.75;;;1.2
54.24;;;13.6
54.27;;;2.0
54.42;;;0.6
54.46;;;28.7
54.77;;;55.5
55.14;;;0.0
55.39;;;29.9
55.53;;;7.8
56.11;;;0.2
56.12;;;6.0
57.44;;;6.9
57.66;;;13.6
57.77;;;2.2
57.97;;;6.7
58.70;;;7.2
58.93;;;30.5
59.02;;;1.7
59.31;;;1.7
60.21;;;4.8
60.55;;;1.5
60.70;;;2.7
60.77;;;32.3
61.01;;;1.8
61.30;;;0.0
62.63;;;729.0
62.65;;;360.6
63.33;;;0.4
63.44;;;2.6
63.49;;;6.1
63.50;;;1.0
63.79;;;19.0
63.83;;;2.7
64.08;;;0.2
64.10;;;0.0
64.23;;;7.7
64.27;;;17.9
64.47;;;0.4
65.02;;;0.0
65.52;;;3.9
65.59;;;1.2
65.64;;;0.0
65.66;;;0.1
65.73;;;2.0
65.89;;;1.0
65.78;;;0.9
65.93;;;1.4
66.26;;;1.6
66.32;;;10.1
67.08;;;10.2
67.13;;;2.6
67.34;;;6.1
67.37;;;1.2
67.49;;;44.4
67.55;;;0.0
67.67;;;44.4
68.00;;;88.7
68.10;;;8.0
68.15;;;20.8
68.52;;;0.1
68.63;;;0.0
69.16;;;19.5
69.32;;;0.1
69.52;;;2.5
69.54;;;3.3
69.59;;;0.2
69.59;;;2.7
69.81;;;0.0
69.96;;;1.0
70.01;;;1.8
70.05;;;3.2
70.09;;;5.4
70.43;;;2.1
70.48;;;9.1
71.39;;;4.5
71.70;;;0.0
71.84;;;3.0
72.12;;;0.0
72.24;;;8.6
72.40;;;3.5
72.89;;;4.9
73.68;;;4.9
73.75;;;29.4
73.78;;;57.2
74.35;;;2.3
74.43;;;12.4
74.46;;;0.9
74.46;;;4.5
74.56;;;1.2
74.62;;;11.1
74.77;;;13.5
74.78;;;4.3
74.82;;;9.4
74.92;;;0.0
75.00;;;0.6
75.06;;;15.8
75.66;;;0.0
76.29;;;0.0
76.46;;;30.1
76.59;;;36.8
76.80;;;58.2
76.87;;;16.9
76.91;;;8.4
77.25;;;0.0
77.32;;;2.4
77.34;;;1.6
77.53;;;2.5
77.62;;;0.0
77.68;;;186.1
79.72;;;3.3
80.04;;;0.0
80.05;;;0.0
80.13;;;0.7
80.17;;;0.2
80.30;;;1.7
80.40;;;4.3
80.44;;;0.0
80.57;;;0.0
80.75;;;2.1
80.84;;;0.3
80.86;;;0.5
80.89;;;6.0
81.25;;;1.7
81.62;;;0.6
81.68;;;0.7
81.82;;;3.6
81.89;;;7.5
81.90;;;0.0
81.91;;;0.3
82.29;;;3.2
82.50;;;18.6
83.15;;;11.1
83.29;;;8.9
83.33;;;3.7
83.42;;;3.6
83.72;;;0.0
83.98;;;6.8
84.32;;;0.0
84.72;;;0.0
84.82;;;76.9
84.91;;;15.9
85.05;;;166.6
85.43;;;2.7
85.46;;;160.0
85.52;;;0.4
85.63;;;4.7
85.64;;;89.0
85.89;;;3.5
85.93;;;10.1
86.06;;;0.0
86.11;;;4.4
86.18;;;8.8
86.27;;;0.4
86.34;;;11.6
86.89;;;2.4
86.98;;;0.6
87.05;;;6.0
87.06;;;0.1
87.10;;;0.5
87.10;;;4.3
87.20;;;0.1
87.52;;;0.2
87.67;;;12.0
87.69;;;17.4
87.74;;;15.2
87.90;;;46.4
87.90;;;3.2
88.03;;;0.0
88.28;;;10.0
88.30;;;39.1
88.35;;;0.8
88.43;;;0.5
88.50;;;25.9
88.54;;;6.3
88.55;;;1.0
88.62;;;0.5
89.03;;;1.0
89.47;;;1.3
89.55;;;0.0
89.86;;;0.1
89.89;;;5.7
89.90;;;4.7
90.03;;;1.2
90.29;;;9.2
90.33;;;0.2
90.42;;;6.1
90.48;;;2.7
90.66;;;3.5
90.85;;;6.6
90.96;;;0.1
90.98;;;0.5
91.00;;;0.5
91.21;;;7.0
91.35;;;1.0
91.40;;;0.8
91.46;;;0.0
91.55;;;11.1
91.65;;;1.5
91.76;;;0.0
91.86;;;2.3
92.10;;;0.0
92.56;;;0.2
92.57;;;0.5
93.00;;;16.2
93.39;;;0.6
93.46;;;0.0
95.10;;;2.5
95.27;;;1.4
95.40;;;5.9
95.42;;;0.0
95.44;;;0.2
95.59;;;2.6
95.60;;;6.0
95.67;;;0.2
95.84;;;3.0
95.90;;;1.7
95.96;;;5.4
96.07;;;0.0
96.26;;;0.3
96.39;;;0.0
96.43;;;0.0
96.58;;;8.0
96.86;;;4.0

File: pyrrhotite_5C_elliot(2010)_298K_peaklist
Peak list for sample No diffraction data present
2theta;Peak height;FWHM;99-900-0006
7.16;;;32.0
14.34;;;7.2
17.60;;;85.3
17.61;;;44.9
18.71;;;73.7
20.34;;;3.3
20.36;;;31.7
21.58;;;2.7
22.51;;;2.6
27.77;;;1.5
28.91;;;1.2
30.33;;;11.2
30.35;;;21.2
30.71;;;1.1
30.72;;;10.8
30.94;;;20.1
32.05;;;9.6
32.07;;;1.0
33.45;;;0.9
33.87;;;15.5
34.85;;;445.3
34.88;;;444.1
34.94;;;442.1
35.62;;;1.4
35.66;;;1.4
35.71;;;1.4
36.36;;;105.6
37.11;;;11.8
37.12;;;6.2
37.30;;;0.6
37.86;;;1.1
37.89;;;1.1
37.94;;;1.1
39.47;;;423.8
39.50;;;422.8
39.55;;;421.1
39.67;;;5.1
39.69;;;0.5
41.36;;;0.8
41.39;;;0.8
41.44;;;0.8
42.19;;;7.9
43.98;;;0.3
43.98;;;6.9
43.99;;;3.6
44.98;;;3.4
45.00;;;6.4
45.89;;;0.6
45.92;;;0.6
45.96;;;0.6
46.81;;;3.0
46.83;;;5.6
46.92;;;5.6
46.95;;;2.9
47.33;;;5.4
47.38;;;5.4
47.58;;;5.3
48.03;;;2.7
48.05;;;0.2
48.13;;;0.2
48.16;;;2.7
49.12;;;0.2
49.17;;;0.2
50.98;;;2.2
51.00;;;4.2
51.24;;;0.2
51.24;;;2.2
51.25;;;1000.0
51.27;;;998.4
51.31;;;995.6
51.80;;;0.2
52.01;;;0.2
52.06;;;0.2
53.52;;;3.5
53.58;;;1.8
53.78;;;1.8
53.80;;;0.1
53.87;;;0.1
53.90;;;1.8
54.08;;;3.4
54.19;;;3.4
54.63;;;0.1
54.68;;;1.7
55.02;;;0.1
55.71;;;0.1
55.87;;;3.0
55.92;;;3.0
57.30;;;0.2
57.32;;;0.2
57.36;;;0.2
57.58;;;1.4
57.60;;;0.1
58.09;;;1.4
58.11;;;2.6
58.18;;;2.6
58.21;;;1.3
58.37;;;0.1
59.90;;;0.1
59.93;;;0.1
59.98;;;1.2
61.06;;;0.1
61.98;;;2.1
62.47;;;384.4
62.58;;;382.0
62.64;;;380.7
62.84;;;0.1
62.98;;;0.2
63.08;;;0.2
63.15;;;0.2
63.21;;;1.0
63.23;;;1.9
63.30;;;1.9
63.32;;;1.0
63.96;;;0.1
63.98;;;1.8
63.98;;;0.1
64.01;;;0.1
64.02;;;0.9
64.47;;;0.1
64.57;;;0.1
64.64;;;0.1
65.51;;;0.9
65.59;;;1.6
65.62;;;0.8
65.66;;;1.6
65.82;;;1.6
65.86;;;1.6
66.09;;;1.6
66.13;;;1.6
66.49;;;0.8
66.57;;;0.0
66.60;;;0.8
66.63;;;0.0
66.89;;;0.0
66.90;;;0.8
66.92;;;0.1
67.02;;;0.1
67.08;;;0.1
67.28;;;0.0
67.32;;;0.0
67.51;;;70.7
67.53;;;70.6
67.56;;;70.5
68.34;;;0.0
68.46;;;0.0
68.85;;;1.4
68.89;;;0.7
69.07;;;0.7
69.08;;;0.0
69.15;;;0.0
69.18;;;0.7
69.68;;;0.0
69.72;;;0.0
70.27;;;0.1
70.37;;;0.1
70.43;;;0.1
71.09;;;1.2
71.21;;;0.1
71.22;;;0.1
71.26;;;0.1
71.28;;;0.6
71.35;;;0.0
71.38;;;0.6
71.41;;;0.0
71.69;;;1.2
72.30;;;0.0
72.34;;;0.0
72.40;;;0.6
72.41;;;0.0
72.98;;;1.1
73.01;;;1.1
73.59;;;32.3
73.67;;;32.1
73.80;;;31.9
74.05;;;0.1
74.13;;;0.1
74.26;;;0.1
74.49;;;13.4
74.49;;;0.0
74.53;;;0.5
74.59;;;13.3
74.64;;;13.3
75.01;;;0.5
75.08;;;1.0
75.11;;;0.5
75.14;;;1.0
75.39;;;1.0
75.39;;;0.5
75.44;;;0.1
75.52;;;0.1
75.65;;;0.1
76.43;;;0.9
76.48;;;48.3
76.55;;;48.2
76.68;;;47.9
77.22;;;183.7
77.71;;;0.0
77.73;;;0.0
77.81;;;0.0
77.94;;;0.0
79.06;;;0.0
79.08;;;0.0
79.11;;;0.0
79.21;;;0.0
79.25;;;0.0
79.53;;;0.0
79.58;;;0.4
79.62;;;0.0
79.65;;;0.8
79.68;;;0.0
79.68;;;0.4
79.72;;;0.8
80.66;;;0.4
80.68;;;0.7
80.91;;;0.0
80.99;;;0.0
81.12;;;0.0
81.57;;;0.7
81.59;;;0.4
81.70;;;0.7
81.80;;;0.3
82.10;;;0.7
82.12;;;0.7
82.16;;;0.7
82.17;;;0.7
82.47;;;0.0
82.50;;;0.3
82.60;;;0.0
82.70;;;0.3
82.90;;;0.3
82.91;;;0.0
82.98;;;0.0
83.20;;;0.0