Folder: RockPy/RockPy/tools/data/XRD

Note: README.md
# RockPy
is a rock- and paleo- magnetism package. It combines many functions, that I have found useful over the years. 
It is intended to be easily user editable (e.g. creating new measurement types). 
The core (RockPy.core) of the package, however, is rather complicated and should not be edited.

# coding
## naming convention 
see google style guide 

`module_name`, `package_name`, 
`ClassName` (exception are result classes as they should behave as methods), `method_name`, 
`ExceptionName`, 
`function_name`, 
`GLOBAL_CONSTANT_NAME`, 
`global_var_name`, `instance_var_name`, `function_parameter_name`, `local_var_name`

File: pyrrhotite_6C_DeVilliers(2010)_298K_peaklist
Peak list for sample No diffraction data present
2theta;Peak height;FWHM;99-900-0009
11.90;;;2.2
17.21;;;0.0
17.48;;;0.6
17.48;;;1.0
18.23;;;1.6
19.42;;;8.5
19.43;;;0.7
20.98;;;12.0
22.84;;;5.5
22.84;;;9.9
23.93;;;0.4
24.92;;;0.3
27.21;;;1.8
27.21;;;5.6
29.63;;;2.5
30.21;;;0.2
30.21;;;0.4
30.67;;;0.0
30.68;;;0.0
31.41;;;0.0
31.41;;;0.0
32.18;;;1.2
32.18;;;0.0
33.69;;;0.0
33.70;;;0.3
34.82;;;0.8
34.83;;;500.4
34.85;;;1000.0
35.20;;;0.0
35.21;;;0.0
35.37;;;0.1
35.38;;;0.0
35.39;;;0.1
36.23;;;165.4
36.89;;;0.4
36.89;;;0.2
36.93;;;0.5
36.95;;;0.5
36.95;;;0.3
37.56;;;0.2
37.56;;;0.6
39.42;;;345.6
39.44;;;346.2
39.44;;;344.0
40.37;;;0.0
40.82;;;1.1
40.82;;;1.4
42.70;;;0.0
42.72;;;0.0
42.72;;;0.2
43.01;;;2.2
43.02;;;2.1
43.26;;;0.2
43.26;;;0.3
45.32;;;1.8
45.33;;;1.9
46.21;;;1.2
46.64;;;0.0
46.66;;;0.0
46.66;;;0.0
46.66;;;0.0
46.76;;;0.6
46.79;;;0.1
46.79;;;0.2
47.09;;;0.4
47.09;;;0.1
47.60;;;2.5
47.60;;;0.7
47.63;;;2.8
47.63;;;0.8
48.33;;;8.3
48.34;;;8.3
48.99;;;0.4
49.23;;;3.8
49.23;;;0.0
49.25;;;6.3
49.25;;;7.6
49.27;;;6.3
49.27;;;7.5
50.31;;;3.9
50.31;;;3.7
50.36;;;0.0
50.36;;;0.1
51.14;;;962.3
51.15;;;960.4
51.15;;;959.9
51.64;;;5.4
51.64;;;8.3
51.66;;;5.8
51.67;;;8.2
52.31;;;3.9
52.97;;;2.4
52.97;;;1.8
53.11;;;6.8
53.11;;;6.5
53.36;;;0.0
53.48;;;0.2
53.48;;;0.0
53.74;;;0.0
54.24;;;2.5
54.24;;;0.8
54.72;;;1.4
54.72;;;0.2
54.74;;;1.4
54.74;;;0.4
54.88;;;8.6
55.45;;;1.6
55.45;;;3.9
55.71;;;1.0
55.71;;;0.9
55.74;;;6.8
55.74;;;8.1
56.11;;;0.0
56.12;;;0.0
56.12;;;0.0
56.50;;;0.3
56.50;;;0.2
56.74;;;0.0
57.95;;;6.9
57.95;;;8.6
58.40;;;0.0
58.41;;;0.1
58.43;;;0.0
58.43;;;0.1
58.66;;;0.2
59.28;;;8.1
60.47;;;0.0
60.47;;;0.0
60.81;;;1.9
60.81;;;0.5
61.48;;;0.1
61.48;;;0.1
61.51;;;0.7
61.52;;;1.2
61.52;;;0.3
61.94;;;1.5
61.94;;;4.4
62.43;;;0.1
62.45;;;1.2
62.47;;;690.8
62.50;;;344.1
62.65;;;0.1
62.65;;;0.1
62.67;;;0.0
62.67;;;0.1
62.81;;;0.0
62.81;;;0.2
63.84;;;0.3
63.85;;;0.1
63.88;;;0.3
63.88;;;0.0
64.28;;;0.8
64.28;;;1.2
64.51;;;0.0
64.51;;;0.0
64.97;;;0.3
64.97;;;0.1
65.29;;;2.3
65.36;;;0.0
65.40;;;0.3
65.56;;;0.1
65.42;;;0.2
65.42;;;0.3
65.55;;;0.0
65.55;;;0.0
65.69;;;0.0
65.69;;;0.0
66.08;;;0.1
66.24;;;0.1
66.10;;;0.1
66.10;;;0.1
66.20;;;0.0
66.70;;;0.2
66.70;;;0.3
67.31;;;53.6
67.32;;;53.6
67.32;;;54.2
67.40;;;0.7
67.40;;;0.0
67.41;;;0.2
67.42;;;0.4
67.42;;;0.8
67.43;;;0.0
67.44;;;0.2
67.44;;;0.3
67.62;;;0.1
67.62;;;0.1
67.89;;;0.0
67.89;;;0.0
67.92;;;0.0
67.93;;;0.0
68.31;;;0.9
68.32;;;1.0
68.37;;;0.0
68.37;;;0.0
68.72;;;1.4
68.72;;;0.2
69.40;;;0.4
69.40;;;0.0
69.42;;;0.1
69.42;;;0.4
69.97;;;0.4
69.97;;;0.5
70.51;;;1.5
70.67;;;0.1
70.67;;;0.1
70.85;;;0.0
70.85;;;0.0
72.01;;;0.0
72.01;;;0.2
72.03;;;0.1
72.03;;;0.0
72.23;;;2.5
72.64;;;0.3
72.64;;;0.6
72.66;;;0.2
72.67;;;0.7
72.88;;;2.7
72.89;;;0.0
73.52;;;0.1
73.53;;;0.0
73.53;;;0.4
73.54;;;33.7
73.58;;;0.0
73.58;;;0.0
73.58;;;66.8
73.86;;;0.0
73.90;;;0.0
73.91;;;0.1
74.13;;;0.0
74.14;;;0.1
74.40;;;20.2
74.40;;;20.1
74.43;;;10.0
74.43;;;9.9
74.82;;;0.1
74.86;;;0.2
74.86;;;0.1
75.22;;;0.0
75.22;;;0.0
75.24;;;0.0
75.24;;;0.0
75.34;;;3.2
75.45;;;0.0
75.45;;;0.0
75.83;;;1.2
75.83;;;1.2
76.41;;;37.6
76.45;;;36.9
76.45;;;38.1
76.91;;;164.7
77.08;;;0.0
77.08;;;0.0
77.55;;;0.0
77.56;;;0.0
77.97;;;1.6
77.97;;;2.8
78.37;;;0.0
78.37;;;0.6
78.38;;;0.1
78.39;;;0.6
78.52;;;0.0
78.52;;;0.0
78.62;;;0.0
78.66;;;0.0
78.66;;;0.1
79.01;;;0.2
79.01;;;0.2
79.03;;;0.1
79.03;;;0.2
79.53;;;0.0
80.16;;;0.0
80.17;;;0.0
80.17;;;0.0
80.69;;;0.0
81.07;;;0.0
81.07;;;0.0
81.15;;;0.1
81.16;;;0.0
81.42;;;0.2
81.43;;;0.2
81.43;;;0.0
81.45;;;0.0
81.47;;;0.1
81.47;;;0.0
81.54;;;0.1
81.54;;;0.0
81.58;;;0.0
81.79;;;0.0